Measurement Date
2021/10/28 18:08:01

Carrier Freq(Hz)
25050000000

Reference Level(dBm),ATT(dB),PreAmp,Offset(dB)
0.00,10.00,OFF,0.00

Average Count
1

Phase Noise Optimization
Auto

Carrier Power(dBm),Freq Error(Hz)
-47.16,-53383.59

Condition
Normal

Offset(Hz),Level(dBc/Hz)
100,-62.97
110,-67.52
120,-69.99
130,-67.41
140,-67.47
150,-69.46
160,-72.23
170,-75.18
180,-71.77
190,-73.41
200,-78.59
210,-75.18
220,-74.23
230,-76.00
240,-75.11
250,-77.17
260,-74.99
270,-75.21
280,-76.00
290,-79.48
300,-80.40
310,-79.41
320,-79.10
330,-76.69
340,-83.22
350,-76.61
360,-81.74
370,-82.85
380,-81.97
390,-82.18
400,-83.91
410,-77.73
420,-80.54
430,-82.74
440,-82.74
450,-85.05
460,-82.23
470,-81.66
480,-86.58
490,-87.38
500,-85.60
510,-83.73
520,-87.43
530,-85.22
540,-86.36
550,-87.47
560,-87.52
570,-89.77
580,-88.73
590,-86.15
600,-86.29
610,-87.80
620,-86.48
630,-86.61
640,-89.62
650,-89.50
660,-88.93
670,-87.24
680,-86.26
690,-86.10
700,-90.80
710,-88.54
720,-84.82
730,-88.39
740,-89.25
750,-87.18
760,-87.45
770,-90.05
780,-89.35
790,-90.45
800,-88.60
810,-89.71
820,-86.85
830,-87.33
840,-88.96
850,-90.23
860,-88.05
870,-92.08
880,-84.94
890,-89.91
900,-87.15
910,-87.98
920,-90.84
930,-85.74
940,-93.26
950,-91.05
960,-89.75
970,-91.28
980,-89.70
990,-89.13
1000,-85.46
1100,-89.75
1200,-89.47
1300,-90.43
1400,-91.63
1500,-89.06
1600,-91.10
1700,-90.27
1800,-88.17
1900,-90.18
2000,-91.37
2100,-90.89
2200,-92.81
2300,-90.56
2400,-88.36
2500,-89.66
2600,-89.38
2700,-90.76
2800,-91.89
2900,-91.54
3000,-90.79
3100,-90.94
3200,-92.55
3300,-90.64
3400,-89.95
3500,-91.78
3600,-91.73
3700,-89.55
3800,-90.25
3900,-91.24
4000,-90.92
4100,-89.52
4200,-90.57
4300,-88.12
4400,-90.28
4500,-90.22
4600,-92.31
4700,-90.02
4800,-93.87
4900,-90.11
5000,-93.23
5100,-91.66
5200,-92.46
5300,-90.87
5400,-89.41
5500,-86.52
5600,-91.85
5700,-93.51
5800,-90.54
5900,-87.49
6000,-91.84
6100,-88.27
6200,-86.38
6300,-88.36
6400,-89.32
6500,-94.12
6600,-91.47
6700,-92.99
6800,-91.53
6900,-91.12
7000,-90.48
7100,-91.10
7200,-89.83
7300,-91.49
7400,-89.63
7500,-92.07
7600,-91.78
7700,-92.04
7800,-90.75
7900,-89.60
8000,-91.11
8100,-94.63
8200,-88.39
8300,-89.71
8400,-91.51
8500,-88.00
8600,-92.63
8700,-91.53
8800,-93.28
8900,-90.29
9000,-90.96
9100,-90.79
9200,-88.49
9300,-88.60
9400,-89.65
9500,-87.97
9600,-91.21
9700,-91.64
9800,-91.72
9900,-93.51
10000,-90.79
11000,-90.32
12000,-90.43
13000,-90.01
14000,-90.15
15000,-88.97
16000,-90.00
17000,-90.52
18000,-90.64
19000,-89.79
20000,-91.12
21000,-91.70
22000,-89.67
23000,-90.13
24000,-89.35
25000,-89.13
26000,-90.53
27000,-90.23
28000,-89.62
29000,-90.86
30000,-89.95
31000,-89.91
32000,-89.54
33000,-90.42
34000,-90.70
35000,-90.43
36000,-90.68
37000,-90.35
38000,-90.11
39000,-90.82
40000,-90.75
41000,-89.21
42000,-90.48
43000,-91.87
44000,-89.84
45000,-91.37
46000,-90.10
47000,-89.95
48000,-90.74
49000,-89.41
50000,-89.20
51000,-89.48
52000,-89.91
53000,-90.51
54000,-90.60
55000,-89.90
56000,-91.77
57000,-90.31
58000,-90.61
59000,-90.76
60000,-90.39
61000,-91.01
62000,-90.44
63000,-91.21
64000,-89.90
65000,-91.19
66000,-90.52
67000,-90.59
68000,-89.90
69000,-90.52
70000,-89.91
71000,-90.88
72000,-90.19
73000,-90.00
74000,-90.03
75000,-89.27
76000,-89.42
77000,-90.18
78000,-90.28
79000,-89.65
80000,-90.35
81000,-91.13
82000,-90.23
83000,-91.23
84000,-89.95
85000,-91.12
86000,-90.28
87000,-89.80
88000,-90.75
89000,-91.18
90000,-90.48
91000,-90.87
92000,-91.07
93000,-90.02
94000,-91.16
95000,-91.26
96000,-90.44
97000,-91.27
98000,-91.04
99000,-90.27
100000,-90.41
110000,-90.71
120000,-90.72
130000,-90.38
140000,-90.25
150000,-90.33
160000,-90.29
170000,-90.51
180000,-90.36
190000,-90.66
200000,-90.56
210000,-90.42
220000,-90.41
230000,-90.08
240000,-90.15
250000,-90.58
260000,-90.05
270000,-90.35
280000,-90.48
290000,-90.54
300000,-90.65
310000,-90.53
320000,-90.14
330000,-90.33
340000,-90.23
350000,-90.57
360000,-90.47
370000,-90.33
380000,-90.31
390000,-90.19
400000,-90.40
410000,-90.15
420000,-90.33
430000,-90.43
440000,-90.24
450000,-90.58
460000,-90.55
470000,-90.54
480000,-90.33
490000,-90.30
500000,-90.46
510000,-90.25
520000,-89.84
530000,-90.64
540000,-90.39
550000,-90.61
560000,-90.69
570000,-90.38
580000,-90.58
590000,-90.00
600000,-90.13
610000,-90.55
620000,-90.56
630000,-90.78
640000,-90.44
650000,-90.49
660000,-90.45
670000,-90.59
680000,-90.37
690000,-90.27
700000,-90.32
710000,-90.40
720000,-90.42
730000,-90.36
740000,-90.25
750000,-90.20
760000,-90.57
770000,-90.31
780000,-90.51
790000,-90.54
800000,-90.24
810000,-90.96
820000,-90.38
830000,-90.33
840000,-90.16
850000,-90.44
860000,-90.68
870000,-90.53
880000,-90.37
890000,-90.48
900000,-90.42
910000,-90.56
920000,-90.33
930000,-90.47
940000,-90.41
950000,-90.62
960000,-89.98
970000,-90.42
980000,-90.66
990000,-90.68
1000000,-90.43
1100000,-89.52
1200000,-89.22
1300000,-90.16
1400000,-91.30
1500000,-88.48
1600000,-89.69
1700000,-92.34
1800000,-91.13
1900000,-91.02
2000000,-88.61
2100000,-90.87
2200000,-90.38
2300000,-90.35
2400000,-89.03
2500000,-90.98
2600000,-92.99
2700000,-91.24
2800000,-87.58
2900000,-88.51
3000000,-90.75
3100000,-92.24
3200000,-90.39
3300000,-91.03
3400000,-89.87
3500000,-90.57
3600000,-88.56
3700000,-88.80
3800000,-90.88
3900000,-93.53
4000000,-90.76
4100000,-89.06
4200000,-90.95
4300000,-91.53
4400000,-89.51
4500000,-89.96
4600000,-92.80
4700000,-89.47
4800000,-88.39
4900000,-92.06
5000000,-92.00
5100000,-91.36
5200000,-92.25
5300000,-91.69
5400000,-91.36
5500000,-91.29
5600000,-91.51
5700000,-89.62
5800000,-91.80
5900000,-89.07
6000000,-90.51
6100000,-90.59
6200000,-89.81
6300000,-89.43
6400000,-91.30
6500000,-90.15
6600000,-88.22
6700000,-90.38
6800000,-90.83
6900000,-88.68
7000000,-91.20
7100000,-90.61
7200000,-92.06
7300000,-90.82
7400000,-91.30
7500000,-90.94
7600000,-89.52
7700000,-90.06
7800000,-90.11
7900000,-90.30
8000000,-91.20
8100000,-88.13
8200000,-93.04
8300000,-92.04
8400000,-90.10
8500000,-93.81
8600000,-92.64
8700000,-89.48
8800000,-90.00
8900000,-90.59
9000000,-90.95
9100000,-89.61
9200000,-90.30
9300000,-92.73
9400000,-91.10
9500000,-93.88
9600000,-89.43
9700000,-88.48
9800000,-91.30
9900000,-89.78
10000000,-90.17
